time,acc.x,acc.y,acc.z
1385095132.397027,0.069091796875,0.017578125,1.06103515625
1385095132.417676,0.061767578125,0.025390625,1.062744140625
1385095132.438012,0.072998046875,0.021728515625,1.071533203125
1385095132.453181,0.06298828125,0.008056640625,1.06396484375
1385095132.471727,0.057373046875,0.00830078125,1.06396484375
1385095132.490086,0.0517578125,0.007080078125,1.081787109375
1385095132.509366,0.063720703125,0.01123046875,1.081787109375
1385095132.528669,0.078125,0.00732421875,1.052490234375
1385095132.54313,0.047119140625,0.0068359375,1.061767578125
1385095132.561492,0.060546875,-0.001708984375,1.04638671875
1385095132.578653,0.06103515625,0.0146484375,1.088134765625
1385095132.59706,0.036376953125,0.0126953125,1.034423828125
1385095132.615512,0.02880859375,0.020751953125,1.0517578125
1385095132.634881,0.05517578125,0.009521484375,1.083984375
1385095132.653481,0.074951171875,-0.023193359375,1.00244140625
1385095132.671897,0.091796875,-0.017578125,0.975830078125
1385095132.686966,0.0869140625,-0.029541015625,1.01904296875
1385095132.705431,0.060546875,-0.0439453125,0.976318359375
1385095132.720428,0.053955078125,-0.024169921875,0.9716796875
1385095132.735939,0.05615234375,-0.00048828125,0.987060546875
1385095132.747569,0.068115234375,0.02001953125,1.018798828125
1385095132.766658,0.002685546875,-0.031494140625,1.116455078125
1385095132.796146,-0.066650390625,0.01513671875,1.21826171875
1385095132.807891,-0.111328125,0.0341796875,1.083740234375
1385095132.827669,0.006103515625,-0.055419921875,1.136474609375
1385095132.838558,-0.021240234375,-0.01513671875,1.199951171875
1385095132.857458,0.023681640625,-0.011474609375,1.037109375
1385095132.887851,0.08203125,0.001220703125,1.1591796875
1385095132.899646,0.1083984375,-0.0146484375,1.03515625
1385095132.917894,0.078857421875,0.006591796875,1.02490234375
1385095132.929261,0.107421875,-0.0263671875,1.198974609375
1385095132.947859,0.072021484375,-0.005615234375,0.93896484375
1385095132.959564,0.07177734375,-0.003173828125,1.06591796875
1385095132.97769,0.047607421875,0.04052734375,1.11376953125
1385095132.991096,0.031005859375,0.0087890625,0.9228515625
1385095133.006562,0.052001953125,-0.00146484375,1.263671875
1385095133.017875,0.026123046875,-0.009765625,1.134521484375
1385095133.03706,0.038330078125,0.0029296875,1.127197265625
1385095133.047968,0.039794921875,-0.02099609375,1.18505859375
1385095133.066558,0.04541015625,-0.002197265625,1.1650390625
1385095133.096639,0.049560546875,-0.01953125,1.1396484375
1385095133.108232,0.043212890625,0.018310546875,1.01953125
1385095133.127459,0.0361328125,0.017333984375,1.02392578125
1385095133.139128,0.011474609375,0.009521484375,1.02783203125
1385095133.15742,0.033935546875,0.000244140625,1.08203125
1385095133.168872,0.0205078125,-0.0126953125,1.135498046875
1385095133.176278,0.02099609375,0.023681640625,0.954345703125
1385095133.187172,0.013671875,-0.001220703125,1.072509765625
1385095133.198576,0.051513671875,0.017333984375,1.00244140625
1385095133.216764,0.037841796875,-0.020751953125,1.111083984375
1385095133.229349,0.017578125,-0.00048828125,1.050048828125
1385095133.247649,0.010498046875,0.00390625,0.9580078125
1385095133.258502,0.042236328125,-0.00146484375,1.146484375
1385095133.276869,0.05029296875,-0.02001953125,1.240478515625
1385095133.306611,0.028076171875,0.020751953125,0.910888671875
1385095133.321859,0.031982421875,-0.0126953125,1.164306640625
1385095133.344749,0.0458984375,-0.023193359375,1.207275390625
1385095133.3566,0.02294921875,-0.004150390625,0.991943359375
1385095133.372024,0.00927734375,-0.009521484375,0.96630859375
1385095133.391475,0.02099609375,-0.013671875,1.041015625
1385095133.402745,0.026123046875,0.008544921875,1.1337890625
1385095133.434328,0.0302734375,-0.021728515625,1.11572265625
1385095133.452836,0.03466796875,-0.026123046875,1.049560546875
1385095133.463702,0.026611328125,0.0146484375,0.94189453125
1385095133.494212,0.017578125,-0.01220703125,1.17333984375
1385095133.515855,0.034423828125,0.030517578125,1.041748046875
1385095133.526788,0.04052734375,-0.00634765625,1.2265625
1385095133.546199,0.03955078125,-0.007080078125,1.160888671875
1385095133.557303,0.044921875,-0.005615234375,1.005859375
1385095133.575679,0.03662109375,-0.012451171875,1.00341796875
1385095133.586798,0.0263671875,0.0068359375,1.1318359375
1385095133.605002,0.01806640625,0.0048828125,1.049560546875
1385095133.620233,0.03466796875,-0.037109375,0.960693359375
1385095133.635532,0.045654296875,-0.033203125,1.078125
1385095133.650374,0.021240234375,0.052001953125,1.166259765625
1385095133.665192,-0.00048828125,0.0458984375,1.114501953125
1385095133.681047,0.02197265625,-0.052978515625,1.05224609375
1385095133.69616,0.0244140625,-0.033935546875,1.028564453125
1385095133.70684,0.02294921875,0.025634765625,1.014892578125
1385095133.726701,0.02880859375,0.015380859375,1.03564453125
1385095133.737882,0.045654296875,-0.002685546875,1.20703125
1385095133.756596,0.00634765625,-0.010498046875,1.15234375
1385095133.769156,0.030517578125,0.004638671875,0.948974609375
1385095133.787888,0.0458984375,-0.028076171875,0.969482421875
1385095133.799502,0.023193359375,0.021240234375,1.013427734375
1385095133.819615,0.012451171875,0.01513671875,0.95263671875
1385095133.83053,0.00341796875,0.005615234375,1.050048828125
1385095133.845657,0.015869140625,-0.003662109375,1.053466796875
1385095133.860879,0.01318359375,0.03759765625,1.064453125
1385095133.875154,0.007080078125,0.0458984375,1.04248046875
1385095133.890135,0.012451171875,-0.00732421875,1.087890625
1385095133.906105,0.034912109375,-0.006591796875,1.12841796875
1385095133.921188,0.013427734375,0.03466796875,1.1025390625
1385095133.935719,0.059814453125,-0.02685546875,0.980224609375
1385095133.950796,0.078857421875,-0.03173828125,0.93115234375
1385095133.964892,0.02978515625,-0.00244140625,0.974365234375
1385095133.980536,0.036376953125,0.017333984375,0.947021484375
1385095133.995721,0.021240234375,0.02734375,0.988525390625
1385095134.007505,0.020263671875,0.00146484375,1.018310546875
1385095134.026038,0.0283203125,0.011962890625,0.99755859375
1385095134.03737,0.036376953125,0.00537109375,0.99365234375
1385095134.055552,0.02001953125,0.0078125,0.99609375
1385095134.071124,0.03173828125,0.01123046875,0.973388671875
1385095134.088016,0.03759765625,0.004638671875,1.001708984375
1385095134.098888,0.025146484375,0.02392578125,1.00634765625
1385095134.116255,0.041748046875,0.029541015625,0.978271484375
1385095134.127071,0.04638671875,-0.008056640625,1.07421875
1385095134.149935,0.04638671875,0.0107421875,1.109619140625
1385095134.160843,0.059326171875,0.0263671875,0.916259765625
1385095134.17586,0.062744140625,0.010498046875,0.917236328125
1385095134.18807,0.036865234375,0.04931640625,1.117431640625
1385095134.206501,0.04931640625,0.054931640625,1.142333984375
1385095134.236762,0.03759765625,0.04541015625,1.0595703125
1385095134.2517,0.019287109375,0.044677734375,1.12255859375
1385095134.266254,0.013427734375,0.0556640625,1.080322265625
1385095134.281138,0.014404296875,0.04248046875,1.034912109375
1385095134.29966,-0.0029296875,0.053955078125,1.025390625
1385095134.310563,0.01953125,0.018310546875,1.069091796875
1385095134.329706,0.0146484375,0.0068359375,1.057373046875
1385095134.340618,-0.002685546875,0.0771484375,1.016845703125
1385095134.359394,0.0302734375,0.061767578125,1.02099609375
1385095134.370139,0.051025390625,0.01025390625,1.002197265625
1385095134.389199,0.07861328125,0.01513671875,1.00244140625
1385095134.400962,0.054443359375,0.0908203125,1.08642578125
1385095134.420305,0.03662109375,0.083740234375,1.12939453125
1385095134.431623,0.046630859375,0.062744140625,1.022705078125
1385095134.449965,0.0185546875,0.05712890625,1.035400390625
1385095134.460742,0.02001953125,0.050537109375,1.056640625
1385095134.480751,0.042724609375,0.013916015625,1.013671875
1385095134.492345,0.038818359375,0.082763671875,1.06298828125
1385095134.51082,0.03564453125,0.066650390625,1.100830078125
1385095134.52992,0.02685546875,0.075927734375,1.0986328125
1385095134.551418,0.0595703125,0.03076171875,0.93896484375
1385095134.563533,0.048583984375,0.044921875,1.02392578125
1385095134.576151,0.021240234375,0.06396484375,1.0048828125
1385095134.590456,0.01123046875,0.032958984375,0.983154296875
1385095134.606186,0.034912109375,0.079345703125,1.1171875
1385095134.621404,0.050537109375,0.063720703125,1.165771484375
1385095134.63221,0.080810546875,0.0517578125,1.00830078125
1385095134.651423,0.04833984375,0.036376953125,1.028564453125
1385095134.663095,0.0126953125,0.097412109375,1.171142578125
1385095134.681963,0.057373046875,0.094970703125,1.19384765625
1385095134.693125,0.044921875,0.065673828125,1.04736328125
1385095134.729698,0.0556640625,0.09765625,1.14306640625
1385095134.749634,0.01904296875,0.0390625,1.19091796875
1385095134.761423,0.014404296875,0.080078125,1.1103515625
1385095134.776217,0.0341796875,0.041259765625,1.1689453125
1385095134.819956,0.079345703125,0.060302734375,1.036376953125
1385095134.839369,0.0615234375,0.0693359375,1.073974609375
1385095134.85017,0.06298828125,0.008056640625,1.1181640625
1385095134.880199,0.0048828125,0.003173828125,1.17431640625
1385095134.898991,0.0537109375,-0.031005859375,1.174072265625
1385095134.90982,0.077392578125,0.032470703125,0.983642578125
1385095134.939907,0.0322265625,0.049560546875,1.029541015625
1385095134.969074,0.020263671875,0.021484375,1.054931640625
1385095134.987725,0.080322265625,0.02587890625,0.935546875
1385095135.030441,0.076171875,-0.022216796875,1.20166015625
1385095135.049277,0.047119140625,0.016357421875,1.037841796875
1385095135.079947,0.03955078125,-0.01123046875,1.1484375
1385095135.090865,0.051025390625,-0.0146484375,1.037353515625
1385095135.109259,0.0478515625,-0.038330078125,1.0390625
1385095135.13837,0.0380859375,0.036376953125,0.89599609375
1385095135.149383,0.037109375,-0.03662109375,1.113037109375
1385095135.168951,0.029052734375,-0.028564453125,1.087646484375
1385095135.17983,0.048583984375,-0.021728515625,1.145263671875
1385095135.198993,0.059326171875,-0.026123046875,1.197021484375
1385095135.22941,0.048583984375,0.009521484375,0.941162109375
1385095135.240348,0.052978515625,-0.0517578125,1.031494140625
1385095135.258698,0.058837890625,-0.04052734375,0.9677734375
1385095135.288405,0.060302734375,-0.0341796875,1.0947265625
1385095135.303164,0.029296875,0.004150390625,1.062255859375
1385095135.317659,0.017333984375,-0.01611328125,1.01123046875
1385095135.333235,0.040771484375,-0.060302734375,1.072265625
1385095135.348528,0.067626953125,-0.04931640625,1.13818359375
1385095135.359418,0.040771484375,-0.016845703125,1.051025390625
1385095135.378745,0.015380859375,-0.026123046875,0.94140625
1385095135.408914,0.060546875,-0.04931640625,1.181884765625
1385095135.419799,0.02587890625,-0.012939453125,1.02490234375
